Freq [Hz]       dBSPL           Phase [Deg]
20.00           57.98           -26.65
20.56           57.72           -26.09
21.13           57.47           -24.83
21.71           57.22           -22.76
22.32           56.97           -19.88
22.94           56.46           -15.38
23.58           55.89           -9.04
24.23           55.35           -1.10
24.90           54.84           8.00
25.60           54.41           17.60
26.31           54.10           26.73
27.04           53.99           34.14
27.79           54.14           38.58
28.56           54.62           39.00
29.36           55.43           34.64
30.17           56.51           25.05
31.01           57.75           10.18
31.87           59.01           -9.54
32.76           60.15           -33.28
33.67           61.15           -59.97
34.61           62.03           -88.52
35.57           62.83           -118.05
36.56           63.65           -147.94
37.57           64.65           -177.91
38.62           65.98           152.13
39.69           67.62           122.24
40.79           69.28           92.45
41.93           70.49           63.07
43.09           71.06           34.83
44.29           71.19           8.83
45.52           71.13           -13.50
46.79           70.97           -30.36
48.09           70.67           -39.62
49.42           70.17           -39.57
50.80           70.04           -29.69
52.21           72.92           -11.05
53.66           77.53           13.54
55.15           80.68           40.63
56.69           82.53           67.43
58.26           83.74           92.23
59.88           84.84           114.10
61.54           86.09           132.00
63.26           87.54           145.13
65.01           89.05           153.39
66.82           90.43           158.01
68.68           91.67           161.40
70.59           92.88           165.54
72.55           94.06           171.31
74.57           95.20           178.26
76.64           96.25           -174.42
78.77           97.20           -167.15
80.96           98.05           -159.75
83.21           98.81           -151.82
85.52           99.50           -143.11
87.90           100.10          -133.56
90.34           100.64          -123.21
92.85           101.09          -112.03
95.43           101.46          -99.90
98.08           101.78          -86.68
100.81          102.06          -72.35
103.61          102.31          -56.94
106.49          102.54          -40.48
109.45          102.76          -22.97
112.49          102.97          -4.52
115.62          103.15          14.75
118.84          103.28          34.75
122.14          103.33          55.56
125.53          103.30          77.41
129.02          103.20          100.64
132.61          103.05          125.42
136.29          102.86          151.70
140.08          102.63          179.35
143.98          102.37          -151.53
147.98          102.10          -120.75
152.09          101.86          -88.37
156.32          101.68          -54.50
160.66          101.58          -19.31
165.13          101.54          16.92
169.72          101.52          54.06
174.44          101.50          92.38
179.28          101.47          132.11
184.27          101.47          173.20
189.39          101.52          -144.48
194.65          101.57          -101.14
200.06          101.57          -56.82
205.62          101.47          -11.15
211.34          101.28          36.53
217.21          101.07          86.67
223.25          100.93          138.72
229.46          100.81          -167.86
235.83          100.61          -113.15
242.39          100.38          -56.54
249.12          100.16          2.19
256.05          100.06          62.90
263.17          100.09          125.27
270.48          100.22          -171.43
278.00          100.26          -106.99
285.73          100.17          -40.48
293.67          100.08          28.99
301.83          100.07          100.68
310.22          100.02          174.45
318.84          99.86           -109.58
327.70          99.71           -31.48
336.81          99.56           49.39
346.17          99.49           132.50
355.80          99.49           -142.66
365.68          99.36           -56.34
375.85          99.12           33.29
386.29          98.87           125.77
397.03          98.70           -138.52
408.07          98.58           -39.05
419.41          98.65           62.73
431.07          98.55           166.74
443.05          98.38           -86.14
455.36          98.27           24.22
468.02          98.26           136.91
481.03          98.17           -105.86
494.40          98.38           13.36
508.14          98.41           134.30
522.26          98.24           -100.57
536.78          98.00           27.30
551.70          97.58           159.28
567.03          97.14           -63.22
582.79          96.74           77.96
598.99          96.57           -137.25
615.64          96.06           10.52
632.75          95.25           165.50
650.34          94.68           -35.09
668.42          93.75           130.76
686.99          93.33           -58.06
706.09          93.09           117.03
725.71          92.90           -65.11
745.89          92.68           118.94
766.62          92.50           -52.58
787.93          92.62           139.06
809.83          92.33           -24.05
832.33          92.14           177.72
855.47          91.57           23.51
879.25          90.96           -118.55
903.68          89.97           110.32
928.80          89.49           -16.62
954.62          88.58           -138.93
981.15          87.74           106.83
1008.42         87.77           2.51
1036.45         88.27           -97.87
1065.26         88.81           169.53
1094.87         89.62           80.43
1125.30         89.97           -12.71
1156.58         90.22           -128.24
1188.72         90.55           119.46
1221.76         90.73           14.03
1255.72         90.91           -87.46
1290.62         90.59           176.18
1326.50         89.95           88.96
1363.37         89.22           -1.84
1401.26         88.91           -92.69
1440.21         88.69           -155.39
1480.24         87.93           170.74
1521.38         87.23           147.74
1563.67         86.65           149.04
1607.13         87.39           161.97
1651.80         89.03           -175.95
1697.71         90.57           -136.43
1744.90         91.05           -71.51
1793.40         91.46           12.85
1843.24         91.70           106.37
1894.48         91.91           -145.32
1947.13         92.12           -32.26
2001.25         92.01           91.01
2056.88         91.59           -126.88
2114.05         90.54           29.84
2172.81         89.75           -155.66
2233.20         88.81           34.36
2295.27         88.01           -118.78
2359.07         86.92           105.66
2424.64         85.71           -14.13
2492.03         84.50           -117.16
2561.29         83.25           152.56
2632.48         81.94           48.28
2705.65         80.67           -72.03
2780.86         79.72           -175.43
2858.15         79.04           99.64
2937.59         78.74           33.12
3019.24         78.31           -12.26
3103.16         78.72           -34.18
3189.41         79.50           -33.97
3278.06         80.24           4.63
3369.17         80.79           111.38
3462.82         80.87           -110.37
3559.06         80.67           52.96
3657.99         80.47           -115.98
3759.66         80.24           101.79
3864.16         79.86           -14.02
3971.56         78.90           -101.55
4081.95         78.30           -159.78
4195.41         77.20           169.73
4312.02         76.75           161.41
4431.87         76.00           130.09
4555.05         75.92           67.63
4681.66         75.80           38.57
4811.78         76.72           36.94
4945.53         77.86           67.93
5082.99         78.36           128.86
5224.27         78.75           -135.22
5369.47         78.95           0.10
5518.72         79.06           -161.62
5672.11         79.03           98.18
5829.76         78.95           -17.61
5991.80         78.55           -124.91
6158.34         77.81           162.29
6329.51         77.29           137.25
6505.44         77.11           155.80
6686.25         76.76           -143.41
6872.10         76.36           -49.64
7063.10         76.70           98.71
7259.42         77.80           19.14
7461.19         79.03           16.68
7668.58         79.30           80.77
7881.72         79.00           175.29
8100.79         78.56           -109.80
8325.95         78.21           -62.59
8557.37         78.84           30.41
8795.22         79.46           -147.91
9039.68         79.33           68.47
9290.93         78.34           -28.14
9549.17         77.65           -53.81
9814.59         78.01           -70.16
10087.38        78.32           -31.26
10367.76        78.33           -37.89
10655.93        78.05           -164.93
10952.11        77.19           55.86
11256.52        76.35           -0.84
11569.39        76.15           17.03
11890.96        76.29           65.23
12221.46        76.28           -141.13
12561.16        75.94           168.52
12910.29        75.74           4.19
13269.13        75.40           118.25
13637.94        74.92           -157.91
14017.00        74.21           89.24
14406.60        74.08           -140.84
14807.03        73.64           148.44
15218.59        72.32           -174.59
15641.58        71.33           -30.21
16076.34        70.84           -145.52
16523.17        70.75           67.28
16982.43        70.29           104.92
17454.45        70.16           -175.36
17939.60        70.07           -108.19
18438.22        69.28           -51.61
18950.71        68.72           -124.09
19477.44        70.58           161.05
20018.81        73.11           -145.73
20575.22        73.59           -0.59
21147.11        74.17           -71.81
21734.88        74.79           167.92
