Freq [Hz]       dBSPL           Phase [Deg]
20.00           60.93           -69.08
20.56           62.50           -63.57
21.13           63.91           -59.37
21.71           65.05           -56.88
22.32           65.88           -56.25
22.94           66.82           -53.79
23.58           67.52           -54.55
24.23           67.97           -59.28
24.90           68.20           -67.59
25.60           68.22           -78.59
26.31           68.02           -90.75
27.04           67.61           -101.94
27.79           66.99           -110.02
28.56           66.22           -113.38
29.36           65.41           -111.08
30.17           64.70           -102.92
31.01           64.27           -89.64
31.87           64.27           -73.06
32.76           64.76           -55.92
33.67           65.73           -41.27
34.61           67.09           -31.99
35.57           68.75           -30.24
36.56           70.61           -37.24
37.57           72.55           -53.15
38.62           74.48           -77.13
39.69           76.37           -107.45
40.79           78.20           -141.54
41.93           80.01           -176.50
43.09           81.79           150.48
44.29           83.50           121.83
45.52           85.00           99.39
46.79           86.12           84.22
48.09           86.76           76.66
49.42           86.99           76.50
50.80           86.98           82.92
52.21           86.81           94.39
53.66           86.50           108.58
55.15           86.06           123.03
56.69           85.70           135.99
58.26           86.02           146.69
59.88           87.10           155.23
61.54           88.37           161.88
63.26           89.57           166.86
65.01           90.83           170.48
66.82           92.29           173.50
68.68           93.87           177.11
70.59           95.34           -177.85
72.55           96.56           -171.18
74.57           97.61           -163.38
76.64           98.62           -155.10
78.77           99.63           -146.71
80.96           100.57          -138.25
83.21           101.40          -129.48
85.52           102.10          -120.03
87.90           102.71          -109.54
90.34           103.28          -97.94
92.85           103.83          -85.41
95.43           104.35          -72.10
98.08           104.80          -58.03
100.81          105.17          -43.06
103.61          105.51          -27.02
106.49          105.81          -9.92
109.45          106.05          8.11
112.49          106.25          27.05
115.62          106.40          47.08
118.84          106.50          68.22
122.14          106.54          90.55
125.53          106.53          114.27
129.02          106.51          139.42
132.61          106.49          165.93
136.29          106.47          -166.21
140.08          106.45          -137.10
143.98          106.43          -106.82
147.98          106.40          -75.17
152.09          106.42          -42.10
156.32          106.49          -7.94
160.66          106.57          27.02
165.13          106.61          63.03
169.72          106.62          100.27
174.44          106.61          138.75
179.28          106.57          178.86
184.27          106.55          -139.60
189.39          106.51          -96.57
194.65          106.46          -51.90
200.06          106.41          -5.72
205.62          106.32          42.28
211.34          106.25          92.07
217.21          106.19          143.62
223.25          106.15          -162.76
229.46          106.08          -108.00
235.83          106.12          -52.10
242.39          106.10          5.07
249.12          106.03          63.95
256.05          105.98          124.79
263.17          105.98          -172.56
270.48          106.03          -108.24
278.00          106.04          -42.58
285.73          106.07          25.30
293.67          105.96          96.21
301.83          105.91          169.84
310.22          105.87          -114.17
318.84          105.71          -36.48
327.70          105.61          43.50
336.81          105.47          126.28
346.17          105.41          -148.50
355.80          105.36          -61.11
365.68          105.27          29.04
375.85          105.24          121.89
386.29          105.23          -143.06
397.03          105.31          -45.10
408.07          105.42          56.42
419.41          105.60          159.96
431.07          105.62          -94.02
443.05          105.58          15.67
455.36          105.66          127.83
468.02          105.66          -117.41
481.03          105.56          2.22
494.40          105.76          125.80
508.14          105.84          -108.82
522.26          105.85          21.04
536.78          106.03          154.42
551.70          106.20          -69.13
567.03          106.40          71.31
582.79          106.57          -144.88
598.99          106.71          1.96
615.64          106.63          151.65
632.75          106.30          -52.33
650.34          106.17          108.83
668.42          105.88          -84.96
686.99          105.75          86.77
706.09          105.57          -97.02
725.71          105.50          84.40
745.89          105.53          -88.77
766.62          105.61          103.02
787.93          105.89          -59.70
809.83          106.14          141.52
832.33          106.56          -12.19
855.47          106.74          -161.60
879.25          106.94          55.18
903.68          107.03          -81.79
928.80          107.11          147.05
954.62          107.13          21.33
981.15          107.06          -97.17
1008.42         106.85          151.64
1036.45         106.56          48.06
1065.26         106.22          -46.67
1094.87         106.04          -133.77
1125.30         106.10          146.91
1156.58         106.31          74.58
1188.72         106.45          9.54
1221.76         106.64          -48.06
1255.72         106.82          -97.61
1290.62         106.86          -139.64
1326.50         106.89          -171.86
1363.37         106.99          164.61
1401.26         107.06          150.10
1440.21         106.92          145.11
1480.24         106.84          150.48
1521.38         106.70          166.65
1563.67         106.61          -159.00
1607.13         106.65          -113.84
1651.80         106.84          -61.35
1697.71         106.90          3.11
1744.90         106.82          78.98
1793.40         106.70          168.61
1843.24         106.51          -89.70
1894.48         106.35          25.64
1947.13         106.32          149.76
2001.25         106.23          -76.63
2056.88         105.91          74.35
2114.05         105.47          -120.20
2172.81         104.98          61.69
2233.20         104.36          -100.70
2295.27         103.55          116.35
2359.07         102.82          -9.65
2424.64         102.00          -119.50
2492.03         101.23          149.26
2561.29         100.60          74.18
2632.48         100.26          18.62
2705.65         99.95           -18.39
2780.86         99.84           -35.54
2858.15         99.96           -35.78
2937.59         99.93           -16.54
3019.24         99.91           23.63
3103.16         99.92           85.51
3189.41         99.88           168.14
3278.06         99.84           -86.39
3369.17         99.61           41.36
3462.82         99.31           -167.38
3559.06         98.84           8.33
3657.99         98.20           -149.48
3759.66         97.57           81.33
3864.16         96.79           -22.30
3971.56         95.73           -97.09
4081.95         94.56           -143.00
4195.41         93.55           -158.27
4312.02         93.08           -143.90
4431.87         92.80           -98.30
4555.05         92.56           -22.51
4681.66         92.42           85.04
4811.78         92.13           -134.88
4945.53         92.16           39.30
5082.99         92.25           -111.11
5224.27         92.30           132.18
5369.47         92.55           54.71
5518.72         93.43           13.46
5672.11         94.54           10.85
5829.76         95.51           43.71
5991.80         96.03           118.54
6158.34         96.46           -127.27
6329.51         97.14           33.34
6505.44         97.67           -124.02
6686.25         98.09           120.95
6872.10         98.41           52.67
7063.10         98.52           34.80
7259.42         98.64           66.83
7461.19         98.80           149.27
7668.58         98.72           -80.46
7881.72         98.31           106.66
8100.79         97.80           -6.62
8325.95         97.35           -59.66
8557.37         96.99           -53.50
8795.22         96.75           12.27
9039.68         96.60           139.30
9290.93         96.25           -28.88
9549.17         96.36           -130.93
9814.59         96.59           -167.34
10087.38        96.77           -137.63
10367.76        96.86           -38.38
10655.93        96.85           132.14
10952.11        96.71           18.51
11256.52        96.34           -15.88
11569.39        96.35           28.29
11890.96        96.47           152.01
12221.46        96.65           -1.81
12561.16        96.61           -71.13
12910.29        96.51           -54.38
13269.13        96.22           48.16
13637.94        95.73           -179.66
14017.00        95.27           44.73
14406.60        94.62           4.19
14807.03        93.11           64.95
15218.59        91.94           -125.02
15641.58        92.30           148.09
16076.34        92.07           166.89
16523.17        91.98           -57.55
16982.43        92.08           -123.05
17454.45        92.06           -40.89
17939.60        91.62           122.81
18438.22        91.18           -29.41
18950.71        90.41           -47.78
19477.44        87.19           84.97
20018.81        83.37           144.86
20575.22        82.84           51.66
21147.11        82.24           -18.28
21734.88        81.65           -69.69
