Freq [Hz]       dBSPL           Phase [Deg]
20.00           62.64           -99.85
20.56           63.02           -93.21
21.13           63.36           -88.57
21.71           63.64           -86.33
22.32           63.84           -86.60
22.94           64.19           -84.79
23.58           64.46           -87.81
24.23           64.63           -96.38
24.90           64.71           -109.83
25.60           64.70           -126.85
26.31           64.64           -145.42
27.04           64.57           -162.79
27.79           64.57           -176.22
28.56           64.70           176.35
29.36           65.03           176.21
30.17           65.58           -176.31
31.01           66.34           -162.02
31.87           67.22           -143.05
32.76           68.14           -122.66
33.67           69.06           -104.54
34.61           69.94           -92.15
35.57           70.83           -88.06
36.56           71.78           -93.71
37.57           72.89           -109.23
38.62           74.28           -133.60
39.69           76.03           -164.84
40.79           78.09           159.97
41.93           80.32           123.92
43.09           82.49           89.87
44.29           84.39           60.24
45.52           85.88           37.02
46.79           86.92           21.61
48.09           87.52           14.95
49.42           87.78           17.46
50.80           87.80           28.54
52.21           87.65           46.25
53.66           87.29           67.21
55.15           86.70           87.77
56.69           85.97           105.53
58.26           85.43           119.68
59.88           85.37           130.70
61.54           85.81           138.77
63.26           86.55           143.71
65.01           87.59           145.45
66.82           88.98           145.20
68.68           90.58           145.39
70.59           92.02           148.01
72.55           93.15           153.54
74.57           94.10           160.78
76.64           95.02           168.16
78.77           95.97           174.88
80.96           96.87           -178.90
83.21           97.66           -172.42
85.52           98.33           -164.97
87.90           98.91           -156.22
90.34           99.45           -146.38
92.85           99.96           -135.84
95.43           100.37          -124.73
98.08           100.66          -112.78
100.81          100.86          -99.60
103.61          101.07          -85.01
106.49          101.30          -69.16
109.45          101.52          -52.42
112.49          101.73          -34.85
115.62          101.96          -16.30
118.84          102.17          2.93
122.14          102.33          22.69
125.53          102.41          43.35
129.02          102.42          64.93
132.61          102.40          87.46
136.29          102.34          111.42
140.08          102.22          136.94
143.98          102.00          163.76
147.98          101.75          -168.02
152.09          101.51          -138.13
156.32          101.33          -107.24
160.66          101.15          -75.60
165.13          100.85          -42.29
169.72          100.49          -6.98
174.44          100.13          29.76
179.28          99.82           68.19
184.27          99.53           108.54
189.39          99.28           150.52
194.65          99.14           -165.93
200.06          99.14           -121.11
205.62          99.19           -75.19
211.34          99.29           -28.61
217.21          99.27           18.67
223.25          99.13           69.01
229.46          98.91           120.47
235.83          98.86           172.00
242.39          98.64           -134.94
249.12          98.34           -80.30
256.05          97.99           -23.23
263.17          97.74           36.12
270.48          97.60           97.82
278.00          97.61           160.13
285.73          97.81           -136.94
293.67          97.62           -70.25
301.83          97.52           -0.88
310.22          97.51           70.43
318.84          97.51           145.02
327.70          97.38           -140.32
336.81          97.23           -62.80
346.17          97.12           16.08
355.80          96.89           97.32
365.68          96.67           -178.33
375.85          96.50           -91.32
386.29          96.32           -2.56
397.03          95.99           86.89
408.07          95.87           -179.29
419.41          95.63           -81.64
431.07          95.37           18.79
443.05          95.07           122.32
455.36          94.99           -131.59
468.02          94.81           -24.60
481.03          94.31           86.67
494.40          93.78           -159.98
508.14          93.27           -38.18
522.26          93.08           85.75
536.78          92.83           -147.52
551.70          92.62           -17.58
567.03          92.43           116.64
582.79          92.41           -107.00
598.99          92.27           34.56
615.64          92.24           179.08
632.75          91.91           -30.36
650.34          91.70           123.42
668.42          91.28           -80.54
686.99          90.73           83.60
706.09          90.32           -108.59
725.71          89.74           64.62
745.89          88.64           -117.58
766.62          88.02           69.01
787.93          88.17           -103.43
809.83          87.83           83.67
832.33          87.21           -110.14
855.47          87.10           50.55
879.25          86.46           -144.01
903.68          85.65           34.47
928.80          84.82           -136.31
954.62          85.16           49.95
981.15          84.32           -118.12
1008.42         83.76           94.66
1036.45         86.45           -32.93
1065.26         87.35           -137.11
1094.87         87.51           126.45
1125.30         88.01           39.17
1156.58         89.41           -52.95
1188.72         89.49           -132.59
1221.76         89.66           162.13
1255.72         90.07           92.94
1290.62         89.69           20.50
1326.50         88.77           -44.75
1363.37         88.30           -104.49
1401.26         88.78           -167.80
1440.21         87.36           136.59
1480.24         87.49           94.34
1521.38         87.29           61.39
1563.67         87.05           46.54
1607.13         86.89           49.85
1651.80         87.60           70.63
1697.71         88.46           107.35
1744.90         88.90           157.28
1793.40         88.66           -171.69
1843.24         88.81           -136.76
1894.48         88.49           -90.70
1947.13         88.06           -34.19
2001.25         87.89           30.99
2056.88         87.42           83.14
2114.05         86.63           126.85
2172.81         84.41           158.15
2233.20         83.39           -159.01
2295.27         82.05           -91.13
2359.07         81.27           -27.50
2424.64         80.68           21.02
2492.03         79.79           41.63
2561.29         79.34           60.65
2632.48         78.75           98.21
2705.65         78.53           153.90
2780.86         78.43           -124.84
2858.15         78.05           -27.73
2937.59         78.07           49.02
3019.24         77.95           153.51
3103.16         78.61           -78.24
3189.41         79.08           93.75
3278.06         78.99           -74.02
3369.17         79.10           130.46
3462.82         79.37           -17.66
3559.06         79.69           175.56
3657.99         79.54           34.35
3759.66         79.57           -146.31
3864.16         80.08           39.42
3971.56         80.04           -140.13
4081.95         80.15           40.31
4195.41         80.28           -153.00
4312.02         79.67           9.81
4431.87         79.05           -158.80
4555.05         79.40           43.31
4681.66         79.32           -66.07
4811.78         78.99           -131.82
4945.53         78.30           159.96
5082.99         77.98           79.95
5224.27         76.93           -2.39
5369.47         76.80           -34.67
5518.72         76.56           -67.20
5672.11         77.26           -98.88
5829.76         76.87           -105.96
5991.80         76.89           -88.96
6158.34         76.50           -59.83
6329.51         76.84           -6.13
6505.44         77.10           126.71
6686.25         77.33           -107.78
6872.10         77.63           0.48
7063.10         78.59           169.93
7259.42         79.14           2.55
7461.19         79.73           -125.94
7668.58         81.10           156.60
7881.72         81.16           155.13
8100.79         80.94           -175.58
8325.95         80.91           -107.09
8557.37         80.94           12.88
8795.22         80.61           131.45
9039.68         79.61           -161.46
9290.93         79.20           -103.80
9549.17         77.14           -93.78
9814.59         76.56           -95.17
10087.38        77.23           -112.90
10367.76        78.03           -69.72
10655.93        78.56           49.25
10952.11        78.72           -130.66
11256.52        78.60           126.99
11569.39        78.53           -32.01
11890.96        78.79           -148.54
12221.46        78.81           101.85
12561.16        78.37           -44.62
12910.29        77.79           108.23
13269.13        76.68           158.23
13637.94        75.67           74.60
14017.00        75.97           -10.77
14406.60        76.13           -3.82
14807.03        75.45           17.79
15218.59        74.83           64.55
15641.58        75.17           -140.24
16076.34        74.78           127.34
16523.17        74.65           94.53
16982.43        74.11           -119.01
17454.45        73.75           172.91
17939.60        72.92           -109.09
18438.22        71.93           -154.47
18950.71        71.38           -70.98
19477.44        74.00           -19.41
20018.81        76.96           172.84
20575.22        77.45           76.14
21147.11        78.03           92.23
21734.88        78.72           -109.02
