Freq [Hz]       dBSPL           Phase [Deg]
20.00           65.45           30.14
20.56           65.58           38.54
21.13           65.73           45.50
21.71           65.88           50.54
22.32           66.06           53.38
22.94           66.34           59.88
23.58           66.66           62.39
24.23           67.00           59.30
24.90           67.34           50.30
25.60           67.68           35.51
26.31           68.00           15.49
27.04           68.29           -8.69
27.79           68.55           -35.78
28.56           68.76           -64.62
29.36           68.92           -94.24
30.17           69.05           -123.81
31.01           69.16           -152.74
31.87           69.26           179.27
32.76           69.39           152.24
33.67           69.58           125.87
34.61           69.90           99.67
35.57           70.41           73.10
36.56           71.18           45.60
37.57           72.31           16.62
38.62           73.84           -14.17
39.69           75.75           -46.63
40.79           77.90           -79.99
41.93           80.12           -112.83
43.09           82.19           -143.11
44.29           83.96           -168.89
45.52           85.34           170.99
46.79           86.32           156.68
48.09           86.91           147.11
49.42           87.20           140.38
50.80           87.25           135.09
52.21           87.11           130.57
53.66           86.75           126.98
55.15           86.17           124.61
56.69           85.43           123.40
58.26           84.77           122.86
59.88           84.67           122.58
61.54           85.38           123.37
63.26           86.61           126.39
65.01           87.99           132.46
66.82           89.34           140.94
68.68           90.65           149.71
70.59           91.92           156.91
72.55           93.17           162.03
74.57           94.33           166.23
76.64           95.34           171.13
78.77           96.22           177.51
80.96           97.02           -174.88
83.21           97.79           -166.76
85.52           98.51           -158.53
87.90           99.16           -150.02
90.34           99.70           -140.77
92.85           100.14          -130.45
95.43           100.48          -119.01
98.08           100.76          -106.48
100.81          101.02          -92.88
103.61          101.24          -78.23
106.49          101.44          -62.45
109.45          101.64          -45.48
112.49          101.86          -27.42
115.62          102.08          -8.56
118.84          102.28          10.85
122.14          102.41          30.82
125.53          102.45          51.63
129.02          102.42          73.47
132.61          102.35          96.65
136.29          102.24          121.50
140.08          102.05          147.55
143.98          101.78          174.74
147.98          101.46          -156.33
152.09          101.18          -125.95
156.32          100.92          -94.51
160.66          100.65          -61.67
165.13          100.35          -27.07
169.72          100.03          8.77
174.44          99.69           46.16
179.28          99.44           85.55
184.27          99.25           126.44
189.39          99.11           168.84
194.65          99.09           -147.38
200.06          99.17           -102.69
205.62          99.23           -57.21
211.34          99.23           -11.02
217.21          99.11           36.65
223.25          99.00           87.53
229.46          98.79           140.15
235.83          98.61           -168.00
242.39          98.23           -114.24
249.12          97.77           -58.24
256.05          97.37           0.20
263.17          97.05           60.82
270.48          96.94           123.30
278.00          96.79           -173.88
285.73          96.71           -110.74
293.67          96.40           -42.92
301.83          96.27           27.74
310.22          96.12           99.00
318.84          96.10           171.24
327.70          95.80           -112.57
336.81          95.49           -34.08
346.17          95.14           46.58
355.80          94.72           130.27
365.68          94.49           -142.84
375.85          94.25           -55.13
386.29          93.91           34.47
397.03          93.19           127.03
408.07          92.72           -129.96
419.41          92.28           -30.08
431.07          91.70           72.35
443.05          91.19           -178.88
455.36          90.70           -70.67
468.02          89.47           42.24
481.03          88.10           164.62
494.40          87.67           -71.52
508.14          88.30           52.73
522.26          89.09           -179.86
536.78          89.76           -49.00
551.70          90.37           83.90
567.03          90.72           -142.10
582.79          90.82           -3.08
598.99          91.20           135.96
615.64          91.16           -81.00
632.75          91.02           69.55
650.34          90.54           -138.21
668.42          89.80           22.95
686.99          89.52           -172.46
706.09          88.72           -1.98
725.71          88.59           173.98
745.89          88.55           -4.49
766.62          88.89           178.83
787.93          88.71           2.80
809.83          88.24           -162.66
832.33          88.01           38.29
855.47          87.63           -113.36
879.25          87.35           101.94
903.68          86.77           -38.31
928.80          86.23           -170.00
954.62          84.37           62.54
981.15          84.29           -47.27
1008.42         85.99           -154.14
1036.45         86.62           77.37
1065.26         86.75           -64.35
1094.87         87.37           160.69
1125.30         89.43           34.47
1156.58         91.18           -89.81
1188.72         92.34           153.86
1221.76         92.83           31.81
1255.72         92.59           -77.30
1290.62         92.39           -166.00
1326.50         92.39           156.40
1363.37         92.24           121.67
1401.26         91.75           96.07
1440.21         90.45           83.70
1480.24         88.71           84.44
1521.38         85.88           100.43
1563.67         85.69           137.64
1607.13         86.53           177.63
1651.80         87.62           -141.80
1697.71         87.81           -86.68
1744.90         88.12           -20.33
1793.40         88.12           58.22
1843.24         88.29           148.18
1894.48         88.25           -112.32
1947.13         88.26           -3.53
2001.25         87.95           113.93
2056.88         86.92           -110.68
2114.05         85.92           41.86
2172.81         85.17           -151.35
2233.20         84.28           30.54
2295.27         83.53           -131.91
2359.07         81.95           87.15
2424.64         80.82           -40.78
2492.03         79.84           -156.44
2561.29         78.80           91.98
2632.48         78.09           -67.36
2705.65         77.42           113.97
2780.86         77.01           -45.86
2858.15         77.13           166.65
2937.59         77.18           40.16
3019.24         76.96           -67.57
3103.16         76.69           -163.32
3189.41         77.13           93.06
3278.06         77.45           72.62
3369.17         77.89           124.52
3462.82         77.75           -153.61
3559.06         77.78           -46.35
3657.99         77.65           86.10
3759.66         77.36           -115.15
3864.16         77.00           32.76
3971.56         76.82           -113.39
4081.95         76.22           84.16
4195.41         75.42           -51.96
4312.02         74.53           -163.48
4431.87         73.31           -3.27
4555.05         72.79           117.10
4681.66         72.45           -105.07
4811.78         72.69           85.77
4945.53         73.16           -31.73
5082.99         73.56           -90.13
5224.27         73.94           -98.92
5369.47         74.07           -72.20
5518.72         74.31           53.80
5672.11         73.95           -35.26
5829.76         73.91           -105.60
5991.80         73.70           175.95
6158.34         73.28           118.59
6329.51         73.08           67.35
6505.44         73.12           59.18
6686.25         73.23           89.19
6872.10         73.01           127.59
7063.10         73.65           178.98
7259.42         76.10           -51.74
7461.19         76.58           174.94
7668.58         76.79           106.36
7881.72         76.70           87.92
8100.79         76.43           64.62
8325.95         76.04           13.34
8557.37         76.08           50.78
8795.22         76.21           -175.90
9039.68         74.78           29.70
9290.93         73.82           -62.89
9549.17         73.60           -122.74
9814.59         73.57           114.32
10087.38        73.57           -82.75
10367.76        73.57           -34.17
10655.93        73.35           179.75
10952.11        73.04           -74.46
11256.52        72.24           -27.60
11569.39        71.72           44.88
11890.96        71.39           89.67
12221.46        71.27           -58.79
12561.16        70.84           -62.94
12910.29        70.72           89.55
13269.13        70.56           -171.25
13637.94        70.36           -154.61
14017.00        69.85           135.82
14406.60        69.77           -3.67
14807.03        68.86           -162.05
15218.59        68.08           75.15
15641.58        67.91           -6.34
16076.34        67.62           17.75
16523.17        67.52           -159.13
16982.43        65.73           -113.84
17454.45        65.75           147.91
17939.60        67.06           -107.73
18438.22        66.59           154.61
18950.71        66.49           -15.13
19477.44        72.01           -42.15
20018.81        75.71           -94.77
20575.22        76.25           -177.81
21147.11        76.89           -60.03
21734.88        77.62           130.20
